{
  "resourceType": "Bundle",
  "id": "13841906-097a-4a47-965a-9508fcc259d5",
  "meta": {
    "lastUpdated": "2019-04-02T19:30:00+00:00"
  },
  "identifier": {
    "system": "https://tools.ietf.org/html/rfc4122",
    "value": "f36927ef-7703-45ed-b0e5-6ec6723cf0f6"
  },
  "type": "message",
  "entry": [
    {
      "fullUrl": "urn:uuid:a4409d7c-b613-477c-b623-87e60406c2f0",
      "resource": {
        "resourceType": "MessageHeader",
        "eventCoding": {
          "system": "https://fhir.nhs.uk/CodeSystem/message-event",
          "code": "unsolicited-observations"
        },
        "sender": {
          "reference": "urn:uuid:d6407de7-0e86-45eb-93cb-035094aaa49e"
        },
        "source": {
          "endpoint": "NOROT003"
        },
        "focus": [
          {
            "reference": "urn:uuid:efae5859-28df-4e7d-be91-6df56d8215e4"
          }
        ]
      }
    },
    {
      "fullUrl": "urn:uuid:d6407de7-0e86-45eb-93cb-035094aaa49e",
      "resource": {
        "resourceType": "Organization",
        "identifier": [
          {
            "system": "https://fhir.nhs.uk/Id/ods-organization-code",
            "value": "RGD"
          }
        ],
        "name": "GREENTOWN GENERAL HOSPITAL",
        "address": [
          {
            "line": [
              "BECKETT STREET"
            ],
            "city": "GREENTOWN",
            "district": "WEST YORKSHIRE",
            "postalCode": "LS9 7TF"
          }
        ]
      }
    },
    {
      "fullUrl": "urn:uuid:bf7a76d3-5b44-4194-a9e0-d1cc1ea5e50e",
      "resource": {
        "resourceType": "Organization",
        "identifier": [
          {
            "system": "https://fhir.nhs.uk/Id/ods-organization-code",
            "value": "D82010"
          }
        ],
        "name": "HEALTH PARK GP SURGERY",
        "address": [
          {
            "line": [
              "30/32 BRIDGE STREET"
            ],
            "city": "HEATH PARK",
            "district": "PUDSEY",
            "postalCode": "LS38 9DH"
          }
        ]
      }
    },
    {
      "fullUrl": "urn:uuid:f25e9d63-6a4e-4de6-b9dc-c912fda62b01",
      "resource": {
        "resourceType": "Practitioner",
        "identifier": [
          {
            "system": "https://fhir.hl7.org.uk/Id/gmp-number",
            "value": "G8040642"
          }
        ],
        "name": [
          {
            "family": "SMITH",
            "given": [
              "John"
            ]
          }
        ]
      }
    },
    {
      "fullUrl": "urn:uuid:8d6c2cd5-0eec-496a-88d0-3785a135df09",
      "resource": {
        "resourceType": "Patient",
        "identifier": [
          {
            "extension": [
              {
                "url": "https://fhir.hl7.org.uk/STU3/StructureDefinition/Extension-CareConnect-NHSNumberVerificationStatus-1",
                "valueCodeableConcept": {
                  "coding": [
                    {
                      "system": "https://fhir.hl7.org.uk/STU3/CodeSystem/CareConnect-NHSNumberVerificationStatus-1",
                      "code": "01",
                      "display": "Number present and verified"
                    }
                  ]
                }
              }
            ],
            "system": "https://fhir.nhs.uk/Id/nhs-number",
            "value": "9432003812"
          }
        ],
        "name": [
          {
            "use": "official",
            "family": "REARDON",
            "given": [
              "John"
            ]
          }
        ],
        "gender": "female",
        "birthDate": "1974-12-29"
      }
    },
    {
      "fullUrl": "urn:uuid:d9df1431-22ac-462a-946a-f195f6c639af",
      "resource": {
        "resourceType": "ServiceRequest",
        "identifier": [
          {
            "system": "https://tools.ietf.org/html/rfc4122",
            "value": "7e9bbd01-4e52-420d-b05b-48bc671d6708"
          }
        ],
        "status": "active",
        "intent": "order",
        "code": {
          "coding": [
            {
              "system": "http://snomed.info/sct",
              "code": "26604007",
              "display": "FBC - Full blood count"
            }
          ]
        },
        "subject": {
          "reference": "urn:uuid:8d6c2cd5-0eec-496a-88d0-3785a135df09",
          "display": "REARDON, John"
        },
        "requester": {
          "reference": "urn:uuid:f25e9d63-6a4e-4de6-b9dc-c912fda62b01",
          "display": "SMITH"
        },
        "performer": [
          {
            "reference": "urn:uuid:d6407de7-0e86-45eb-93cb-035094aaa49e",
            "display": "GREENTOWN GENERAL HOSPITAL"
          }
        ],
        "note": [
          {
            "text": "FBC"
          }
        ]
      }
    },
    {
      "fullUrl": "urn:uuid:efae5859-28df-4e7d-be91-6df56d8215e4",
      "resource": {
        "resourceType": "DiagnosticReport",
        "identifier": [
          {
            "system": "https://tools.ietf.org/html/rfc4122",
            "value": "efae5859-28df-4e7d-be91-6df56d8215e4"
          }
        ],
        "basedOn": [
          {
            "reference": "urn:uuid:d9df1431-22ac-462a-946a-f195f6c639af"
          }
        ],
        "status": "final",
        "code": {
          "coding": [
            {
              "system": "http://snomed.info/sct",
              "code": "721981007",
              "display": "Diagnostic studies report"
            }
          ]
        },
        "subject": {
          "reference": "urn:uuid:8d6c2cd5-0eec-496a-88d0-3785a135df09",
          "display": "REARDON, John"
        },
        "issued": "2019-04-03T12:00:00+00:00",
        "specimen": [
          {
            "reference": "urn:uuid:756a8361-79ce-4561-afcb-a91fe19df123"
          }
        ],
        "performer": [
          {
            "reference": "urn:uuid:d6407de7-0e86-45eb-93cb-035094aaa49e",
            "display": "GREENTOWN GENERAL HOSPITAL"
          }
        ],
        "result": [
          {
            "reference": "urn:uuid:dacb177a-9501-4dcc-8b22-b941791ae0db"
          },
          {
            "reference": "urn:uuid:14962dcf-5bf2-4be5-b660-e73ec26a2b36"
          },
          {
            "reference": "urn:uuid:32685afe-1d46-4d98-8279-39b9e96ee914"
          },
          {
            "reference": "urn:uuid:770b982d-be09-4744-a5d7-54e757947ffe"
          },
          {
            "reference": "urn:uuid:0a8aba3d-6b29-4dba-9c64-3a47516cc5eb"
          },
          {
            "reference": "urn:uuid:ddc43c3a-2863-4d6f-a926-162f5a4174b1"
          },
          {
            "reference": "urn:uuid:9825b7cf-de29-4c07-9b84-4af04dbf8233"
          },
          {
            "reference": "urn:uuid:e732e681-3a89-4433-a37b-3767dd19d809"
          },
          {
            "reference": "urn:uuid:2a604bea-1ef4-4cb1-97a0-f2a160f12679"
          },
          {
            "reference": "urn:uuid:704b6bb2-a1c0-429b-b901-c641e70345ec"
          },
          {
            "reference": "urn:uuid:53f4132c-0168-4327-8d69-560b13f5bb4e"
          },
          {
            "reference": "urn:uuid:c9e03e92-78b8-4e8e-9785-cbd9424e9380"
          },
          {
            "reference": "urn:uuid:9c61ad77-8c17-41aa-b795-f0fcb9f983d5"
          },
          {
            "reference": "urn:uuid:f67cb109-0890-4e47-9126-86da677c7008"
          },
          {
            "reference": "urn:uuid:1f2e71db-b9aa-4e4f-9a78-87f99fefc8bf"
          },
          {
            "reference": "urn:uuid:a23b563d-765a-4032-8dd3-c03178224f35"
          },
          {
            "reference": "urn:uuid:fedb7c2d-337c-435c-9169-612349783b5a"
          },
          {
            "reference": "urn:uuid:f9070943-7460-413a-a608-e15334b6e1d9"
          },
          {
            "reference": "urn:uuid:66acb40a-e241-474a-92b5-c74f9aa6a854"
          }
        ]
      }
    },
    {
      "fullUrl": "urn:uuid:756a8361-79ce-4561-afcb-a91fe19df123",
      "resource": {
        "resourceType": "Specimen",
        "identifier": [
          {
            "system": "https://tools.ietf.org/html/rfc4122",
            "value": "1b663fc5-9dec-49c0-9eed-18a7cfa5a6b2"
          }
        ],
        "status": "available",
        "type": {
          "coding": [
            {
              "system": "http://snomed.info/sct",
              "code": "122555007",
              "display": "Venous blood specimen (specimen)"
            }
          ]
        },
        "subject": {
          "reference": "urn:uuid:8d6c2cd5-0eec-496a-88d0-3785a135df09",
          "display": "REARDON, John"
        },
        "receivedTime": "2017-11-01T15:00:00+00:00",
        "collection": {
          "collectedDateTime": "2019-04-01T11:00:00+00:00"
        }
      }
    },
    {
      "fullUrl": "urn:uuid:dacb177a-9501-4dcc-8b22-b941791ae0db",
      "resource": {
        "resourceType": "Observation",
        "identifier": [
          {
            "system": "https://tools.ietf.org/html/rfc4122",
            "value": "dacb177a-9501-4dcc-8b22-b941791ae0db"
          }
        ],
        "status": "final",
        "code": {
          "coding": [
            {
              "system": "http://snomed.info/sct",
              "code": "26604007",
              "display": "FBC - Full blood count"
            }
          ]
        },
        "subject": {
          "reference": "urn:uuid:8d6c2cd5-0eec-496a-88d0-3785a135df09",
          "display": "REARDON, John"
        },
        "performer": [
          {
            "reference": "urn:uuid:d6407de7-0e86-45eb-93cb-035094aaa49e",
            "display": "GREENTOWN GENERAL HOSPITAL"
          }
        ],
        "specimen": {
          "reference": "urn:uuid:756a8361-79ce-4561-afcb-a91fe19df123"
        }
      }
    },
    {
      "fullUrl": "urn:uuid:14962dcf-5bf2-4be5-b660-e73ec26a2b36",
      "resource": {
        "resourceType": "Observation",
        "identifier": [
          {
            "system": "https://tools.ietf.org/html/rfc4122",
            "value": "14962dcf-5bf2-4be5-b660-e73ec26a2b36"
          }
        ],
        "status": "final",
        "category": [
          {
            "coding": [
              {
                "system": "http://snomed.info/sct",
                "code": "394595002",
                "display": "Pathology (qualifier value)"
              }
            ]
          }
        ],
        "code": {
          "coding": [
            {
              "system": "http://snomed.info/sct",
              "code": "1022541000000102",
              "display": "Total white cell count (observable entity)"
            }
          ]
        },
        "performer": [
          {
            "reference": "urn:uuid:d6407de7-0e86-45eb-93cb-035094aaa49e",
            "display": "GREENTOWN GENERAL HOSPITAL"
          }
        ],
        "valueQuantity": {
          "value": 5.7,
          "unit": "10*9/L"
        },
        "specimen": {
          "reference": "urn:uuid:756a8361-79ce-4561-afcb-a91fe19df123"
        },
        "referenceRange": [
          {
            "low": {
              "value": 3.5
            },
            "high": {
              "value": 11
            }
          }
        ]
      }
    },
    {
      "fullUrl": "urn:uuid:32685afe-1d46-4d98-8279-39b9e96ee914",
      "resource": {
        "resourceType": "Observation",
        "identifier": [
          {
            "system": "https://tools.ietf.org/html/rfc4122",
            "value": "32685afe-1d46-4d98-8279-39b9e96ee914"
          }
        ],
        "status": "final",
        "category": [
          {
            "coding": [
              {
                "system": "http://snomed.info/sct",
                "code": "394595002",
                "display": "Pathology (qualifier value)"
              }
            ]
          }
        ],
        "code": {
          "coding": [
            {
              "system": "http://snomed.info/sct",
              "code": "1022451000000103",
              "display": "Red blood cell count (observable entity)"
            }
          ]
        },
        "performer": [
          {
            "reference": "urn:uuid:d6407de7-0e86-45eb-93cb-035094aaa49e",
            "display": "GREENTOWN GENERAL HOSPITAL"
          }
        ],
        "valueQuantity": {
          "value": 4.57,
          "unit": "10*12/L"
        },
        "specimen": {
          "reference": "urn:uuid:756a8361-79ce-4561-afcb-a91fe19df123"
        },
        "referenceRange": [
          {
            "low": {
              "value": 3.8
            },
            "high": {
              "value": 5
            }
          }
        ]
      }
    },
    {
      "fullUrl": "urn:uuid:770b982d-be09-4744-a5d7-54e757947ffe",
      "resource": {
        "resourceType": "Observation",
        "identifier": [
          {
            "system": "https://tools.ietf.org/html/rfc4122",
            "value": "770b982d-be09-4744-a5d7-54e757947ffe"
          }
        ],
        "status": "final",
        "category": [
          {
            "coding": [
              {
                "system": "http://snomed.info/sct",
                "code": "394595002",
                "display": "Pathology (qualifier value)"
              }
            ]
          }
        ],
        "code": {
          "coding": [
            {
              "system": "http://snomed.info/sct",
              "code": "1022431000000105",
              "display": "Haemoglobin estimation (observable entity)"
            }
          ]
        },
        "performer": [
          {
            "reference": "urn:uuid:d6407de7-0e86-45eb-93cb-035094aaa49e",
            "display": "GREENTOWN GENERAL HOSPITAL"
          }
        ],
        "valueQuantity": {
          "value": 142,
          "unit": "g/dL"
        },
        "specimen": {
          "reference": "urn:uuid:756a8361-79ce-4561-afcb-a91fe19df123"
        },
        "referenceRange": [
          {
            "low": {
              "value": 115
            },
            "high": {
              "value": 150
            }
          }
        ]
      }
    },
    {
      "fullUrl": "urn:uuid:0a8aba3d-6b29-4dba-9c64-3a47516cc5eb",
      "resource": {
        "resourceType": "Observation",
        "identifier": [
          {
            "system": "https://tools.ietf.org/html/rfc4122",
            "value": "0a8aba3d-6b29-4dba-9c64-3a47516cc5eb"
          }
        ],
        "status": "final",
        "category": [
          {
            "coding": [
              {
                "system": "http://snomed.info/sct",
                "code": "394595002",
                "display": "Pathology (qualifier value)"
              }
            ]
          }
        ],
        "code": {
          "coding": [
            {
              "system": "http://snomed.info/sct",
              "code": "1022291000000105",
              "display": "Haematocrit (observable entity)"
            }
          ]
        },
        "performer": [
          {
            "reference": "urn:uuid:d6407de7-0e86-45eb-93cb-035094aaa49e",
            "display": "GREENTOWN GENERAL HOSPITAL"
          }
        ],
        "valueQuantity": {
          "value": 0.427,
          "unit": "%"
        },
        "specimen": {
          "reference": "urn:uuid:756a8361-79ce-4561-afcb-a91fe19df123"
        },
        "referenceRange": [
          {
            "low": {
              "value": 0.36
            },
            "high": {
              "value": 0.46
            }
          }
        ]
      }
    },
    {
      "fullUrl": "urn:uuid:ddc43c3a-2863-4d6f-a926-162f5a4174b1",
      "resource": {
        "resourceType": "Observation",
        "identifier": [
          {
            "system": "https://tools.ietf.org/html/rfc4122",
            "value": "ddc43c3a-2863-4d6f-a926-162f5a4174b1"
          }
        ],
        "status": "final",
        "category": [
          {
            "coding": [
              {
                "system": "http://snomed.info/sct",
                "code": "394595002",
                "display": "Pathology (qualifier value)"
              }
            ]
          }
        ],
        "code": {
          "coding": [
            {
              "system": "http://snomed.info/sct",
              "code": "1022491000000106",
              "display": "Mean corpuscular volume (observable entity)"
            }
          ]
        },
        "performer": [
          {
            "reference": "urn:uuid:d6407de7-0e86-45eb-93cb-035094aaa49e",
            "display": "GREENTOWN GENERAL HOSPITAL"
          }
        ],
        "valueQuantity": {
          "value": 93.4,
          "unit": "fL"
        },
        "specimen": {
          "reference": "urn:uuid:756a8361-79ce-4561-afcb-a91fe19df123"
        },
        "referenceRange": [
          {
            "low": {
              "value": 80
            },
            "high": {
              "value": 99
            }
          }
        ]
      }
    },
    {
      "fullUrl": "urn:uuid:9825b7cf-de29-4c07-9b84-4af04dbf8233",
      "resource": {
        "resourceType": "Observation",
        "identifier": [
          {
            "system": "https://tools.ietf.org/html/rfc4122",
            "value": "9825b7cf-de29-4c07-9b84-4af04dbf8233"
          }
        ],
        "status": "final",
        "category": [
          {
            "coding": [
              {
                "system": "http://snomed.info/sct",
                "code": "394595002",
                "display": "Pathology (qualifier value)"
              }
            ]
          }
        ],
        "code": {
          "coding": [
            {
              "system": "http://snomed.info/sct",
              "code": "1022471000000107",
              "display": "Mean corpuscular haemoglobin (observable entity)"
            }
          ]
        },
        "performer": [
          {
            "reference": "urn:uuid:d6407de7-0e86-45eb-93cb-035094aaa49e",
            "display": "GREENTOWN GENERAL HOSPITAL"
          }
        ],
        "valueQuantity": {
          "value": 31.1,
          "unit": "pg"
        },
        "specimen": {
          "reference": "urn:uuid:756a8361-79ce-4561-afcb-a91fe19df123"
        },
        "referenceRange": [
          {
            "low": {
              "value": 27.5
            },
            "high": {
              "value": 32.5
            }
          }
        ]
      }
    },
    {
      "fullUrl": "urn:uuid:e732e681-3a89-4433-a37b-3767dd19d809",
      "resource": {
        "resourceType": "Observation",
        "identifier": [
          {
            "system": "https://tools.ietf.org/html/rfc4122",
            "value": "e732e681-3a89-4433-a37b-3767dd19d809"
          }
        ],
        "status": "final",
        "category": [
          {
            "coding": [
              {
                "system": "http://snomed.info/sct",
                "code": "394595002",
                "display": "Pathology (qualifier value)"
              }
            ]
          }
        ],
        "code": {
          "coding": [
            {
              "system": "http://snomed.info/sct",
              "code": "1022481000000109",
              "display": "Mean corpuscular haemoglobin concentration (observable entity)"
            }
          ]
        },
        "performer": [
          {
            "reference": "urn:uuid:d6407de7-0e86-45eb-93cb-035094aaa49e",
            "display": "GREENTOWN GENERAL HOSPITAL"
          }
        ],
        "valueQuantity": {
          "value": 333,
          "unit": "g/dL"
        },
        "specimen": {
          "reference": "urn:uuid:756a8361-79ce-4561-afcb-a91fe19df123"
        },
        "referenceRange": [
          {
            "low": {
              "value": 310
            },
            "high": {
              "value": 350
            }
          }
        ]
      }
    },
    {
      "fullUrl": "urn:uuid:2a604bea-1ef4-4cb1-97a0-f2a160f12679",
      "resource": {
        "resourceType": "Observation",
        "identifier": [
          {
            "system": "https://tools.ietf.org/html/rfc4122",
            "value": "2a604bea-1ef4-4cb1-97a0-f2a160f12679"
          }
        ],
        "status": "final",
        "category": [
          {
            "coding": [
              {
                "system": "http://snomed.info/sct",
                "code": "394595002",
                "display": "Pathology (qualifier value)"
              }
            ]
          }
        ],
        "code": {
          "coding": [
            {
              "system": "http://snomed.info/sct",
              "code": "1022651000000100",
              "display": "Platelet count (observable entity)"
            }
          ]
        },
        "performer": [
          {
            "reference": "urn:uuid:d6407de7-0e86-45eb-93cb-035094aaa49e",
            "display": "GREENTOWN GENERAL HOSPITAL"
          }
        ],
        "valueQuantity": {
          "value": 206,
          "unit": "10*9/L"
        },
        "specimen": {
          "reference": "urn:uuid:756a8361-79ce-4561-afcb-a91fe19df123"
        },
        "referenceRange": [
          {
            "low": {
              "value": 140
            },
            "high": {
              "value": 400
            }
          }
        ]
      }
    },
    {
      "fullUrl": "urn:uuid:704b6bb2-a1c0-429b-b901-c641e70345ec",
      "resource": {
        "resourceType": "Observation",
        "identifier": [
          {
            "system": "https://tools.ietf.org/html/rfc4122",
            "value": "704b6bb2-a1c0-429b-b901-c641e70345ec"
          }
        ],
        "status": "final",
        "category": [
          {
            "coding": [
              {
                "system": "http://snomed.info/sct",
                "code": "394595002",
                "display": "Pathology (qualifier value)"
              }
            ]
          }
        ],
        "code": {
          "coding": [
            {
              "system": "http://snomed.info/sct",
              "code": "1022551000000104",
              "display": "Neutrophil count (observable entity)"
            }
          ]
        },
        "performer": [
          {
            "reference": "urn:uuid:d6407de7-0e86-45eb-93cb-035094aaa49e",
            "display": "GREENTOWN GENERAL HOSPITAL"
          }
        ],
        "valueQuantity": {
          "value": 2.76,
          "unit": "10*9/L"
        },
        "specimen": {
          "reference": "urn:uuid:756a8361-79ce-4561-afcb-a91fe19df123"
        },
        "referenceRange": [
          {
            "low": {
              "value": 1.7
            },
            "high": {
              "value": 8
            }
          }
        ]
      }
    },
    {
      "fullUrl": "urn:uuid:53f4132c-0168-4327-8d69-560b13f5bb4e",
      "resource": {
        "resourceType": "Observation",
        "identifier": [
          {
            "system": "https://tools.ietf.org/html/rfc4122",
            "value": "53f4132c-0168-4327-8d69-560b13f5bb4e"
          }
        ],
        "status": "final",
        "category": [
          {
            "coding": [
              {
                "system": "http://snomed.info/sct",
                "code": "394595002",
                "display": "Pathology (qualifier value)"
              }
            ]
          }
        ],
        "code": {
          "coding": [
            {
              "system": "http://snomed.info/sct",
              "code": "1015471000000105",
              "display": "Percentage neutrophils (observable entity)"
            }
          ]
        },
        "performer": [
          {
            "reference": "urn:uuid:d6407de7-0e86-45eb-93cb-035094aaa49e",
            "display": "ST JAMES'S UNIVERSITY HOSPITAL"
          }
        ],
        "valueQuantity": {
          "value": 77.7,
          "unit": "%"
        },
        "specimen": {
          "reference": "urn:uuid:756a8361-79ce-4561-afcb-a91fe19df123"
        }
      }
    },
    {
      "fullUrl": "urn:uuid:c9e03e92-78b8-4e8e-9785-cbd9424e9380",
      "resource": {
        "resourceType": "Observation",
        "identifier": [
          {
            "system": "https://tools.ietf.org/html/rfc4122",
            "value": "c9e03e92-78b8-4e8e-9785-cbd9424e9380"
          }
        ],
        "status": "final",
        "category": [
          {
            "coding": [
              {
                "system": "http://snomed.info/sct",
                "code": "394595002",
                "display": "Pathology (qualifier value)"
              }
            ]
          }
        ],
        "code": {
          "coding": [
            {
              "system": "http://snomed.info/sct",
              "code": "1022581000000105",
              "display": "Lymphocyte count (observable entity)"
            }
          ]
        },
        "performer": [
          {
            "reference": "urn:uuid:d6407de7-0e86-45eb-93cb-035094aaa49e",
            "display": "GREENTOWN GENERAL HOSPITAL"
          }
        ],
        "valueQuantity": {
          "value": 2.12,
          "unit": "10*9/L"
        },
        "specimen": {
          "reference": "urn:uuid:756a8361-79ce-4561-afcb-a91fe19df123"
        },
        "referenceRange": [
          {
            "low": {
              "value": 1
            },
            "high": {
              "value": 4
            }
          }
        ]
      }
    },
    {
      "fullUrl": "urn:uuid:9c61ad77-8c17-41aa-b795-f0fcb9f983d5",
      "resource": {
        "resourceType": "Observation",
        "identifier": [
          {
            "system": "https://tools.ietf.org/html/rfc4122",
            "value": "9c61ad77-8c17-41aa-b795-f0fcb9f983d5"
          }
        ],
        "status": "final",
        "category": [
          {
            "coding": [
              {
                "system": "http://snomed.info/sct",
                "code": "394595002",
                "display": "Pathology (qualifier value)"
              }
            ]
          }
        ],
        "code": {
          "coding": [
            {
              "system": "http://snomed.info/sct",
              "code": "1015481000000107",
              "display": "Percentage lymphocytes (observable entity)"
            }
          ]
        },
        "performer": [
          {
            "reference": "urn:uuid:d6407de7-0e86-45eb-93cb-035094aaa49e",
            "display": "GREENTOWN GENERAL HOSPITAL"
          }
        ],
        "valueQuantity": {
          "value": 14.3,
          "unit": "%"
        },
        "specimen": {
          "reference": "urn:uuid:756a8361-79ce-4561-afcb-a91fe19df123"
        }
      }
    },
    {
      "fullUrl": "urn:uuid:f67cb109-0890-4e47-9126-86da677c7008",
      "resource": {
        "resourceType": "Observation",
        "identifier": [
          {
            "system": "https://tools.ietf.org/html/rfc4122",
            "value": "f67cb109-0890-4e47-9126-86da677c7008"
          }
        ],
        "status": "final",
        "category": [
          {
            "coding": [
              {
                "system": "http://snomed.info/sct",
                "code": "394595002",
                "display": "Pathology (qualifier value)"
              }
            ]
          }
        ],
        "code": {
          "coding": [
            {
              "system": "http://snomed.info/sct",
              "code": "1022591000000107",
              "display": "Monocyte count (observable entity)"
            }
          ]
        },
        "performer": [
          {
            "reference": "urn:uuid:d6407de7-0e86-45eb-93cb-035094aaa49e",
            "display": "GREENTOWN GENERAL HOSPITAL"
          }
        ],
        "valueQuantity": {
          "value": 0.48,
          "unit": "10*9/L"
        },
        "specimen": {
          "reference": "urn:uuid:756a8361-79ce-4561-afcb-a91fe19df123"
        },
        "referenceRange": [
          {
            "low": {
              "value": 0.2
            },
            "high": {
              "value": 0.8
            }
          }
        ]
      }
    },
    {
      "fullUrl": "urn:uuid:1f2e71db-b9aa-4e4f-9a78-87f99fefc8bf",
      "resource": {
        "resourceType": "Observation",
        "identifier": [
          {
            "system": "https://tools.ietf.org/html/rfc4122",
            "value": "1f2e71db-b9aa-4e4f-9a78-87f99fefc8bf"
          }
        ],
        "status": "final",
        "category": [
          {
            "coding": [
              {
                "system": "http://snomed.info/sct",
                "code": "394595002",
                "display": "Pathology (qualifier value)"
              }
            ]
          }
        ],
        "code": {
          "coding": [
            {
              "system": "http://snomed.info/sct",
              "code": "1015491000000109",
              "display": "Percentage monocytes (observable entity)"
            }
          ]
        },
        "performer": [
          {
            "reference": "urn:uuid:d6407de7-0e86-45eb-93cb-035094aaa49e",
            "display": "GREENTOWN GENERAL HOSPITAL"
          }
        ],
        "valueQuantity": {
          "value": 7.1,
          "unit": "%"
        },
        "specimen": {
          "reference": "urn:uuid:756a8361-79ce-4561-afcb-a91fe19df123"
        }
      }
    },
    {
      "fullUrl": "urn:uuid:a23b563d-765a-4032-8dd3-c03178224f35",
      "resource": {
        "resourceType": "Observation",
        "identifier": [
          {
            "system": "https://tools.ietf.org/html/rfc4122",
            "value": "a23b563d-765a-4032-8dd3-c03178224f35"
          }
        ],
        "status": "final",
        "category": [
          {
            "coding": [
              {
                "system": "http://snomed.info/sct",
                "code": "394595002",
                "display": "Pathology (qualifier value)"
              }
            ]
          }
        ],
        "code": {
          "coding": [
            {
              "system": "http://snomed.info/sct",
              "code": "1022561000000101",
              "display": "Eosinophil count (observable entity)"
            }
          ]
        },
        "performer": [
          {
            "reference": "urn:uuid:d6407de7-0e86-45eb-93cb-035094aaa49e",
            "display": "GREENTOWN GENERAL HOSPITAL"
          }
        ],
        "valueQuantity": {
          "value": 0.29,
          "unit": "10*9/L"
        },
        "specimen": {
          "reference": "urn:uuid:756a8361-79ce-4561-afcb-a91fe19df123"
        },
        "referenceRange": [
          {
            "low": {
              "value": 0.04
            },
            "high": {
              "value": 0.4
            }
          }
        ]
      }
    },
    {
      "fullUrl": "urn:uuid:fedb7c2d-337c-435c-9169-612349783b5a",
      "resource": {
        "resourceType": "Observation",
        "identifier": [
          {
            "system": "https://tools.ietf.org/html/rfc4122",
            "value": "fedb7c2d-337c-435c-9169-612349783b5a"
          }
        ],
        "status": "final",
        "category": [
          {
            "coding": [
              {
                "system": "http://snomed.info/sct",
                "code": "394595002",
                "display": "Pathology (qualifier value)"
              }
            ]
          }
        ],
        "code": {
          "coding": [
            {
              "system": "http://snomed.info/sct",
              "code": "1015561000000104",
              "display": "Percentage eosinophils (observable entity)"
            }
          ]
        },
        "performer": [
          {
            "reference": "urn:uuid:d6407de7-0e86-45eb-93cb-035094aaa49e",
            "display": "GREENTOWN GENERAL HOSPITAL"
          }
        ],
        "valueQuantity": {
          "value": 0.9,
          "unit": "%"
        },
        "specimen": {
          "reference": "urn:uuid:756a8361-79ce-4561-afcb-a91fe19df123"
        }
      }
    },
    {
      "fullUrl": "urn:uuid:f9070943-7460-413a-a608-e15334b6e1d9",
      "resource": {
        "resourceType": "Observation",
        "identifier": [
          {
            "system": "https://tools.ietf.org/html/rfc4122",
            "value": "f9070943-7460-413a-a608-e15334b6e1d9"
          }
        ],
        "status": "final",
        "category": [
          {
            "coding": [
              {
                "system": "http://snomed.info/sct",
                "code": "394595002",
                "display": "Pathology (qualifier value)"
              }
            ]
          }
        ],
        "code": {
          "coding": [
            {
              "system": "http://snomed.info/sct",
              "code": "1022571000000108",
              "display": "Basophil count (observable entity)"
            }
          ]
        },
        "performer": [
          {
            "reference": "urn:uuid:d6407de7-0e86-45eb-93cb-035094aaa49e",
            "display": "GREENTOWN GENERAL HOSPITAL"
          }
        ],
        "valueQuantity": {
          "value": 0.06,
          "unit": "10*9/L"
        },
        "specimen": {
          "reference": "urn:uuid:756a8361-79ce-4561-afcb-a91fe19df123"
        },
        "referenceRange": [
          {
            "low": {
              "value": 0.02
            },
            "high": {
              "value": 0.1
            }
          }
        ]
      }
    },
    {
      "fullUrl": "urn:uuid:66acb40a-e241-474a-92b5-c74f9aa6a854",
      "resource": {
        "resourceType": "Observation",
        "identifier": [
          {
            "system": "https://tools.ietf.org/html/rfc4122",
            "value": "66acb40a-e241-474a-92b5-c74f9aa6a854"
          }
        ],
        "status": "final",
        "category": [
          {
            "coding": [
              {
                "system": "http://snomed.info/sct",
                "code": "394595002",
                "display": "Pathology (qualifier value)"
              }
            ]
          }
        ],
        "code": {
          "coding": [
            {
              "system": "http://snomed.info/sct",
              "code": "1015501000000103",
              "display": "Percentage basophils (observable entity)"
            }
          ]
        },
        "performer": [
          {
            "reference": "urn:uuid:d6407de7-0e86-45eb-93cb-035094aaa49e",
            "display": "GREENTOWN GENERAL HOSPITAL"
          }
        ],
        "valueQuantity": {
          "value": 0,
          "unit": "%"
        },
        "specimen": {
          "reference": "urn:uuid:756a8361-79ce-4561-afcb-a91fe19df123"
        }
      }
    }
  ]
}
