{
  "resourceType": "Bundle",
  "id": "4f67281a-e1b8-11e8-9f32-f2801f1b9fd1",
  "meta": {
    "profile": [
      "http://hl7.org/fhir/STU3/StructureDefinition/Bundle"
    ]
  },
  "type": "message",
  "entry": [
    {
      "fullUrl": "urn:uuid:4399a596-d1ee-11e8-a8d5-f2801f1b9fd1",
      "resource": {
        "resourceType": "MessageHeader",
        "meta": {
          "versionId": "1",
          "lastUpdated": "2017-11-01T15:00:33+00:00"
        },
        "extension": [
          {
            "url": "https://fhir.nhs.uk/STU3/StructureDefinition/Extension-RoutingDemographics-1",
            "extension": [
              {
                "url": "nhsNumber",
                "valueIdentifier": {
                  "system": "https://fhir.nhs.uk/Id/nhs-number",
                  "value": "9912003888"
                }
              },
              {
                "url": "name",
                "valueHumanName": {
                  "use": "official",
                  "family": "DAWKINS",
                  "given": [
                    "Jack"
                  ]
                }
              },
              {
                "url": "birthDateTime",
                "valueDateTime": "2017-10-02T12:00:00+00:00"
              }
            ]
          },
          {
            "url": "https://fhir.nhs.uk/STU3/StructureDefinition/Extension-MessageEventType-1",
            "valueCodeableConcept": {
              "coding": [
                {
                  "system": "https://fhir.nhs.uk/STU3/CodeSystem/MessageEventType-1",
                  "code": "new",
                  "display": "New event message"
                }
              ]
            }
          }
        ],
        "eventCoding": {
          "system": "https://fhir.nhs.uk/STU3/CodeSystem/EventType-1",
          "code": "pds-death-notification-1",
          "display": "PDS Death Notification"
        },
        "source": {
          "contact": {
            "system": "email",
            "value": "ssd.nationalservicedesk@nhs.net"
          },
          "endpoint": "urn:nhs:addressing:asid:477121000323"
        },
        "responsible": {
          "reference": "urn:uuid:8a3e3de0-02b7-4b31-b671-b9410cda98e9",
          "display": "NHS DIGITAL"
        },
        "focus": [
          {
            "reference": "urn:uuid:4399a6c2-d1ee-11e8-a8d5-f2801f1b9fd1"
          }
        ]
      }
    },
    {
      "fullUrl": "urn:uuid:4399a6c2-d1ee-11e8-a8d5-f2801f1b9fd1",
      "resource": {
        "resourceType": "Communication",
        "status": "completed",
        "subject": {
          "reference": "urn:uuid:4399b37e-d1ee-11e8-a8d5-f2801f1b9fd1",
          "display": "JONES, Jack"
        },
        "sent": "2017-11-03T00:00:00+00:00",
        "sender": {
          "reference": "urn:uuid:8a3e3de0-02b7-4b31-b671-b9410cda98e9",
          "display": "NHS DIGITAL"
        }
      }
    },
    {
      "fullUrl": "urn:uuid:4399b37e-d1ee-11e8-a8d5-f2801f1b9fd1",
      "resource": {
        "resourceType": "Patient",
        "extension": [
          {
            "url": "https://fhir.hl7.org.uk/STU3/StructureDefinition/Extension-CareConnect-DeathNotificationStatus-1",
            "extension": [
              {
                "url": "deathNotificationStatus",
                "valueCodeableConcept": {
                  "coding": [
                    {
                      "system": "https://fhir.hl7.org.uk/STU3/CodeSystem/CareConnect-DeathNotificationStatus-1",
                      "code": "2"
                    }
                  ]
                }
              },
              {
                "url": "systemEffectiveDate",
                "valueDateTime": "2017-11-03T00:00:00+00:00"
              }
            ]
          }
        ],
        "identifier": [
          {
            "extension": [
              {
                "url": "https://fhir.hl7.org.uk/STU3/StructureDefinition/Extension-CareConnect-NHSNumberVerificationStatus-1",
                "valueCodeableConcept": {
                  "coding": [
                    {
                      "system": "https://fhir.hl7.org.uk/STU3/CareConnect-NHSNumberVerificationStatus-1",
                      "code": "01",
                      "display": "Number present and verified"
                    }
                  ]
                }
              }
            ],
            "system": "https://fhir.nhs.uk/Id/nhs-number",
            "value": "6101231234"
          }
        ],
        "name": [
          {
            "use": "official",
            "family": "JONES",
            "given": [
              "Jack"
            ]
          }
        ],
        "gender": "male",
        "deceasedDateTime": "2017-11-01T15:00:00+00:00",
        "address": [
          {
            "use": "home",
            "line": [
              "4 Sandmoor Drive",
              "LEEDS"
            ],
            "postalCode": "LS17 7DF"
          }
        ]
      }
    },
    {
      "fullUrl": "urn:uuid:8a3e3de0-02b7-4b31-b671-b9410cda98e9",
      "resource": {
        "resourceType": "Organization",
        "identifier": [
          {
            "system": "https://fhir.nhs.uk/Id/ods-organization-code",
            "value": "X26"
          }
        ],
        "name": "NHS DIGITAL"
      }
    },
    {
      "fullUrl": "urn:uuid:4399ae9c-d1ee-11e8-a8d5-f2801f1b9fd1",
      "resource": {
        "resourceType": "HealthcareService",
        "identifier": [
          {
            "system": "https://fhir.nhs.uk/STU3/CodeSystem/EMS-HealthcareServiceType-1",
            "value": "PDS"
          }
        ],
        "providedBy": {
          "reference": "urn:uuid:8a3e3de0-02b7-4b31-b671-b9410cda98e9",
          "display": "NHS DIGITAL"
        },
        "type": [
          {
            "coding": [
              {
                "system": "https://fhir.nhs.uk/STU3/CodeSystem/EMS-HealthcareServiceType-1",
                "code": "PDS",
                "display": "Personal Demographics Service"
              }
            ]
          }
        ]
      }
    }
  ]
}
